%  FabNS Header Version:	0.1
%  Export Date:	Wed Nov 13 2024
%  Shape:	1600 
%  Shape Units:	Wavelength [nm] 
%  Data Unit:	units
519.018 3015
519.095 2980
519.172 3003
519.249 3006
519.326 3035
519.403 3007
519.479 3014
519.556 2992
519.633 3024
519.71 3026
519.787 2996
519.863 3029
519.94 3024
520.017 3008
520.094 3012
520.171 3015
520.247 3009
520.324 3011
520.401 3029
520.478 3011
520.555 3011
520.632 3006
520.708 3011
520.785 3030
520.862 3015
520.939 3024
521.016 3012
521.092 3007
521.169 3028
521.246 3004
521.323 3022
521.4 3003
521.476 3019
521.553 3029
521.63 3025
521.707 3021
521.784 3001
521.86 3012
521.937 3018
522.014 3005
522.091 3010
522.167 3013
522.244 3009
522.321 3032
522.398 3018
522.475 3019
522.551 3019
522.628 3019
522.705 2997
522.782 2989
522.858 3025
522.935 2993
523.012 3009
523.089 2995
523.166 3022
523.242 3014
523.319 3024
523.396 3004
523.473 2998
523.549 3004
523.626 3021
523.703 2991
523.78 2999
523.857 3031
523.933 3007
524.01 3017
524.087 3012
524.164 3026
524.24 3008
524.317 3016
524.394 3023
524.47 3005
524.547 2999
524.624 2995
524.701 2999
524.777 3016
524.854 3025
524.931 2988
525.008 3019
525.084 3011
525.161 2988
525.238 2998
525.315 3023
525.391 3020
525.468 3000
525.545 3015
525.622 3025
525.698 3024
525.775 3010
525.852 2991
525.929 3011
526.005 3008
526.082 3008
526.159 3003
526.235 3024
526.312 3006
526.389 3011
526.466 3024
526.542 3006
526.619 3031
526.696 3024
526.773 2993
526.849 2999
526.926 3001
527.003 3033
527.079 3012
527.156 3005
527.233 3019
527.31 3022
527.386 3013
527.463 3004
527.54 3006
527.616 2999
527.693 3014
527.77 3003
527.846 3026
527.923 3011
528 2996
528.077 3000
528.153 3005
528.23 2994
528.307 3034
528.383 3000
528.46 2979
528.537 3007
528.613 2995
528.69 3011
528.767 3013
528.844 3028
528.92 3008
528.997 2988
529.074 3011
529.15 3022
529.227 3029
529.304 3005
529.38 2989
529.457 2994
529.534 3022
529.61 3018
529.687 3002
529.764 3002
529.84 2997
529.917 3014
529.994 3010
530.07 3017
530.147 3030
530.224 3009
530.3 3017
530.377 3011
530.454 3011
530.53 3013
530.607 3019
530.684 2977
530.76 3003
530.837 3022
530.914 3003
530.99 2989
531.067 3023
531.144 3014
531.22 3025
531.297 3025
531.374 2987
531.45 3001
531.527 3006
531.604 2997
531.68 3023
531.757 2997
531.833 2998
531.91 3022
531.987 3004
532.063 2993
532.14 3026
532.217 3001
532.293 3022
532.37 3004
532.447 3007
532.523 2993
532.6 3015
532.677 2996
532.753 3018
532.83 3005
532.906 3020
532.983 2995
533.06 3017
533.136 3005
533.213 3002
533.29 2978
533.366 3033
533.443 3013
533.519 2987
533.596 3003
533.673 3003
533.749 3017
533.826 3006
533.903 3022
533.979 3021
534.056 3004
534.132 3030
534.209 3017
534.286 3068
534.362 3103
534.439 3137
534.515 3134
534.592 3159
534.669 3151
534.745 3104
534.822 3073
534.898 3062
534.975 3061
535.052 3038
535.128 3019
535.205 3035
535.281 3024
535.358 3013
535.435 3003
535.511 3021
535.588 3027
535.664 3014
535.741 3018
535.817 3023
535.894 3015
535.971 3024
536.047 3015
536.124 3012
536.2 3008
536.277 3017
536.354 3026
536.43 3010
536.507 3001
536.583 3028
536.66 3012
536.736 3009
536.813 3000
536.89 3000
536.966 3005
537.043 3016
537.119 3002
537.196 3009
537.272 3007
537.349 3022
537.425 3001
537.502 2997
537.579 3001
537.655 3032
537.732 3020
537.808 2985
537.885 3013
537.961 3017
538.038 3011
538.114 3021
538.191 3011
538.268 3015
538.344 3020
538.421 3002
538.497 3027
538.574 3018
538.65 3019
538.727 3016
538.803 2984
538.88 3029
538.956 3016
539.033 2996
539.109 3004
539.186 3008
539.263 3020
539.339 3005
539.416 3015
539.492 2992
539.569 2998
539.645 3008
539.722 3019
539.798 3014
539.875 3007
539.951 3033
540.028 3000
540.104 3013
540.181 3008
540.257 3046
540.334 3064
540.41 3092
540.487 3067
540.563 3089
540.64 3074
540.716 3068
540.793 3024
540.869 3058
540.946 3042
541.022 3039
541.099 2993
541.175 3021
541.252 3012
541.328 3017
541.405 3014
541.481 3034
541.558 3018
541.634 3018
541.711 3030
541.787 2994
541.864 3002
541.94 3029
542.017 3047
542.093 3009
542.17 3024
542.246 3017
542.323 3029
542.399 3030
542.476 3006
542.552 3027
542.629 3001
542.705 3011
542.782 3005
542.858 3011
542.935 3024
543.011 3030
543.088 3024
543.164 3020
543.24 3006
543.317 3019
543.393 3010
543.47 3015
543.546 3023
543.623 2994
543.699 3022
543.776 3023
543.852 3010
543.929 3025
544.005 3020
544.082 3015
544.158 3046
544.234 3024
544.311 3031
544.387 2999
544.464 2992
544.54 3022
544.617 2982
544.693 3021
544.77 3008
544.846 3021
544.922 3036
544.999 3029
545.075 3012
545.152 2988
545.228 3001
545.305 3018
545.381 3020
545.458 3023
545.534 3002
545.61 3013
545.687 3033
545.763 3024
545.84 3009
545.916 3029
545.992 3038
546.069 3026
546.145 3023
546.222 3012
546.298 3024
546.375 3055
546.451 3038
546.527 3026
546.604 3031
546.68 3036
546.757 3040
546.833 3028
546.909 3033
546.986 3019
547.062 3021
547.139 3027
547.215 3033
547.292 3030
547.368 3015
547.444 3026
547.521 3021
547.597 3045
547.674 3043
547.75 3024
547.826 3026
547.903 3011
547.979 3017
548.055 3028
548.132 3026
548.208 3015
548.285 3029
548.361 3023
548.437 3030
548.514 3004
548.59 3020
548.667 3038
548.743 3013
548.819 3009
548.896 2994
548.972 2999
549.048 3020
549.125 3003
549.201 3014
549.277 3011
549.354 2993
549.43 3011
549.507 3004
549.583 3012
549.659 3027
549.736 3006
549.812 3000
549.888 2987
549.965 3003
550.041 3019
550.117 3012
550.194 3027
550.27 2998
550.346 2991
550.423 3000
550.499 3005
550.576 3014
550.652 3045
550.728 2998
550.805 3000
550.881 3011
550.957 3022
551.034 3027
551.11 3005
551.186 3025
551.263 3020
551.339 3021
551.415 3014
551.492 2999
551.568 3006
551.644 2999
551.721 3004
551.797 3012
551.873 2995
551.95 3008
552.026 3018
552.102 2996
552.179 3024
552.255 3023
552.331 3002
552.408 3016
552.484 3007
552.56 3023
552.636 3014
552.713 3023
552.789 3014
552.865 3009
552.942 3030
553.018 3000
553.094 2994
553.171 3022
553.247 3015
553.323 3004
553.399 3020
553.476 2995
553.552 3030
553.628 3001
553.705 3021
553.781 3013
553.857 3022
553.934 3023
554.01 3006
554.086 3000
554.162 3016
554.239 3002
554.315 3008
554.391 3020
554.468 2994
554.544 3009
554.62 3006
554.696 2989
554.773 3020
554.849 3013
554.925 3014
555.002 3017
555.078 3007
555.154 2993
555.23 3020
555.307 2990
555.383 3017
555.459 3010
555.535 3020
555.612 3006
555.688 3011
555.764 3011
555.84 3014
555.917 2999
555.993 3022
556.069 3032
556.145 2984
556.222 3032
556.298 3026
556.374 3029
556.45 3015
556.527 3016
556.603 3015
556.679 3010
556.755 3004
556.832 3005
556.908 3022
556.984 3016
557.06 3016
557.137 3015
557.213 3005
557.289 3017
557.365 3014
557.441 2997
557.518 2996
557.594 2996
557.67 3019
557.746 3016
557.823 3027
557.899 3019
557.975 3030
558.051 3001
558.128 2999
558.204 3022
558.28 3000
558.356 2994
558.432 3033
558.509 3013
558.585 3019
558.661 3008
558.737 3006
558.813 3006
558.89 3009
558.966 3005
559.042 2983
559.118 3013
559.194 2996
559.271 3013
559.347 2989
559.423 3015
559.499 3025
559.575 3017
559.652 2998
559.728 2974
559.804 3007
559.88 3006
559.956 3004
560.033 3038
560.109 3004
560.185 3003
560.261 3005
560.337 2991
560.413 3027
560.49 3004
560.566 3019
560.642 3028
560.718 2992
560.794 3003
560.87 3010
560.947 3024
561.023 3025
561.099 2986
561.175 3019
561.251 2997
561.327 3009
561.404 2991
561.48 3021
561.556 3037
561.632 3029
561.708 3013
561.784 3018
561.861 3018
561.937 3001
562.013 3022
562.089 3029
562.165 3011
562.241 3027
562.317 3000
562.394 3002
562.47 3009
562.546 3008
562.622 3020
562.698 3006
562.774 3012
562.85 2992
562.927 3029
563.003 2992
563.079 3031
563.155 3025
563.231 3009
563.307 3011
563.383 3019
563.459 2995
563.536 3030
563.612 3012
563.688 3018
563.764 3010
563.84 2990
563.916 3035
563.992 3018
564.068 3022
564.144 3013
564.221 3034
564.297 3024
564.373 3002
564.449 3010
564.525 3001
564.601 3000
564.677 3016
564.753 3017
564.829 3004
564.905 3001
564.982 3014
565.058 2997
565.134 3038
565.21 3007
565.286 3040
565.362 3035
565.438 3032
565.514 3000
565.59 3000
565.666 3007
565.742 3010
565.818 3013
565.895 3019
565.971 3005
566.047 3021
566.123 2994
566.199 3002
566.275 2993
566.351 3004
566.427 3031
566.503 3012
566.579 3006
566.655 3008
566.731 3015
566.807 3003
566.883 2999
566.96 3015
567.036 3034
567.112 3011
567.188 3014
567.264 3011
567.34 3009
567.416 3011
567.492 2991
567.568 3003
567.644 3005
567.72 3036
567.796 2991
567.872 3012
567.948 3014
568.024 3009
568.1 3006
568.176 3004
568.252 3018
568.328 2999
568.404 3025
568.48 3010
568.557 2993
568.633 3011
568.709 3020
568.785 3001
568.861 3010
568.937 3022
569.013 2993
569.089 3013
569.165 2993
569.241 2997
569.317 3039
569.393 3026
569.469 3018
569.545 2988
569.621 3036
569.697 3022
569.773 3001
569.849 3002
569.925 3000
570.001 3007
570.077 3034
570.153 3024
570.229 3001
570.305 3002
570.381 3010
570.457 2997
570.533 3026
570.609 3019
570.685 3034
570.761 3003
570.837 3031
570.913 3014
570.989 3033
571.065 3013
571.141 3000
571.217 3015
571.293 3019
571.369 3017
571.445 3001
571.521 3019
571.596 3016
571.672 3002
571.748 3012
571.824 3009
571.9 3023
571.976 3037
572.052 2997
572.128 3017
572.204 3033
572.28 3020
572.356 3006
572.432 3019
572.508 2999
572.584 3018
572.66 3003
572.736 2999
572.812 2988
572.888 3006
572.964 3027
573.04 3002
573.116 3011
573.192 3000
573.268 3007
573.344 3011
573.419 3007
573.495 3013
573.571 3006
573.647 2994
573.723 2999
573.799 3017
573.875 3010
573.951 3023
574.027 3022
574.103 2997
574.179 3002
574.255 3004
574.331 3012
574.407 3017
574.482 3013
574.558 3014
574.634 3020
574.71 3034
574.786 3043
574.862 3041
574.938 3013
575.014 3003
575.09 3013
575.166 3016
575.241 3017
575.317 3008
575.393 3031
575.469 3030
575.545 3011
575.621 3025
575.697 3014
575.773 3019
575.849 3012
575.925 3028
576 3002
576.076 3011
576.152 3004
576.228 3015
576.304 3000
576.38 3020
576.456 3017
576.532 3008
576.608 3000
576.683 2995
576.759 3010
576.835 3009
576.911 3006
576.987 3013
577.063 3025
577.139 3008
577.214 3004
577.29 2995
577.366 3013
577.442 3031
577.518 3006
577.594 3000
577.67 3007
577.745 3002
577.821 3010
577.897 2992
577.973 3022
578.049 3012
578.125 2993
578.201 3011
578.276 3006
578.352 3009
578.428 2994
578.504 3009
578.58 2993
578.656 3014
578.732 3007
578.807 3008
578.883 3010
578.959 3002
579.035 3002
579.111 2999
579.186 3018
579.262 3008
579.338 3012
579.414 2999
579.49 3023
579.566 3005
579.641 3013
579.717 3026
579.793 3008
579.869 3015
579.945 3018
580.021 3011
580.096 3008
580.172 3019
580.248 3012
580.324 3003
580.399 3008
580.475 3006
580.551 3015
580.627 3013
580.703 3022
580.779 3007
580.854 2996
580.93 3015
581.006 3015
581.082 3008
581.157 3033
581.233 3023
581.309 3011
581.385 2989
581.461 3021
581.536 3017
581.612 3014
581.688 3028
581.764 3004
581.839 2982
581.915 3007
581.991 3012
582.067 2990
582.143 3019
582.218 2995
582.294 3010
582.37 3009
582.446 3005
582.521 3025
582.597 2996
582.673 3044
582.749 3010
582.824 3008
582.9 3026
582.976 2992
583.052 3000
583.127 3012
583.203 3013
583.279 3022
583.355 3032
583.43 3012
583.506 3013
583.582 3017
583.658 3017
583.733 3008
583.809 3000
583.885 2996
583.961 2998
584.036 3007
584.112 3020
584.188 2993
584.263 3002
584.339 3015
584.415 3050
584.491 2999
584.566 3024
584.642 2988
584.718 3031
584.794 3010
584.869 3017
584.945 3015
585.021 3009
585.096 3013
585.172 3029
585.248 3022
585.324 3048
585.399 3017
585.475 3118
585.551 3517
585.626 3775
585.702 3871
585.778 3896
585.853 3793
585.929 3686
586.005 3546
586.08 3387
586.156 3242
586.232 3122
586.307 3084
586.383 3071
586.459 3039
586.535 3020
586.61 3014
586.686 3027
586.762 3043
586.837 3051
586.913 3036
586.989 3030
587.064 3044
587.14 3040
587.216 3035
587.291 3024
587.367 3016
587.443 3020
587.518 3001
587.594 3001
587.67 3026
587.745 3029
587.821 3009
587.897 3044
587.972 3024
588.048 3008
588.123 3031
588.199 3032
588.275 2994
588.35 3007
588.426 3030
588.502 3145
588.577 3183
588.653 3158
588.729 3165
588.804 3153
588.88 3125
588.956 3095
589.031 3065
589.107 3057
589.182 3052
589.258 3028
589.334 3034
589.409 3001
589.485 3026
589.56 2998
589.636 3011
589.712 2998
589.787 3035
589.863 3030
589.939 3011
590.014 3028
590.09 3017
590.165 3006
590.241 3014
590.317 3012
590.392 3019
590.468 3020
590.543 3025
590.619 3005
590.695 3040
590.77 2995
590.846 2998
590.921 3031
590.997 3003
591.073 3010
591.148 2994
591.224 3018
591.299 3010
591.375 3041
591.45 3008
591.526 3015
591.602 3011
591.677 3015
591.753 3027
591.828 3008
591.904 3014
591.979 3025
592.055 3011
592.131 3024
592.206 2997
592.282 2989
592.357 3013
592.433 3019
592.508 3019
592.584 3032
592.659 3021
592.735 3027
592.811 3003
592.886 3006
592.962 2992
593.037 3027
593.113 3020
593.188 2998
593.264 2990
593.339 3021
593.415 3011
593.49 3023
593.566 2984
593.642 3018
593.717 3019
593.793 3017
593.868 3009
593.944 3004
594.019 3012
594.095 3035
594.17 3007
594.246 3012
594.321 3050
594.397 3025
594.472 3005
594.548 3006
594.623 3024
594.699 3036
594.774 3193
594.85 3246
594.925 3257
595.001 3251
595.076 3234
595.152 3189
595.227 3155
595.303 3113
595.378 3069
595.454 3054
595.529 3025
595.605 3012
595.68 3027
595.756 3024
595.831 3025
595.907 3006
595.982 2988
596.058 3017
596.133 3024
596.209 3041
596.284 3017
596.36 3033
596.435 3018
596.511 3025
596.586 3004
596.662 3024
596.737 2998
596.812 3020
596.888 3007
596.963 3020
597.039 3026
597.114 3005
597.19 3007
597.265 3010
597.341 2999
597.416 3008
597.492 3000
597.567 3015
597.643 3018
597.718 3028
597.793 3049
597.869 3045
597.944 3054
598.02 3025
598.095 3049
598.171 3034
598.246 3046
598.321 3014
598.397 3032
598.472 3027
598.548 3008
598.623 3000
598.699 3016
598.774 3008
598.849 3011
598.925 3047
599 3018
599.076 3022
599.151 3014
599.227 3009
599.302 3017
599.377 3004
599.453 3022
599.528 3024
599.604 3026
599.679 3010
599.754 2986
599.83 3009
599.905 3012
599.981 3028
600.056 3022
600.131 3017
600.207 3020
600.282 3017
600.358 3015
600.433 3003
600.508 3016
600.584 3008
600.659 3001
600.734 2993
600.81 3011
600.885 3015
600.961 3014
601.036 3019
601.111 2999
601.187 3014
601.262 3001
601.337 2996
601.413 3002
601.488 3032
601.564 2999
601.639 3004
601.714 3002
601.79 3023
601.865 3010
601.94 3009
602.016 3011
602.091 3016
602.166 2999
602.242 3005
602.317 2990
602.392 2994
602.468 3019
602.543 2998
602.618 3005
602.694 3011
602.769 2968
602.844 3028
602.92 2996
602.995 3004
603.07 2996
603.146 3003
603.221 3033
603.296 3057
603.372 3064
603.447 3078
603.522 3075
603.598 3049
603.673 3035
603.748 3055
603.824 3030
603.899 3015
603.974 3011
604.05 3005
604.125 3022
604.2 3003
604.276 3018
604.351 3024
604.426 3010
604.501 3009
604.577 3017
604.652 3022
604.727 3006
604.803 3000
604.878 3018
604.953 3022
605.029 3006
605.104 3021
605.179 3008
605.254 3022
605.33 3010
605.405 3015
605.48 3014
605.555 2988
605.631 3012
605.706 3006
605.781 3005
605.857 3014
605.932 3000
606.007 3028
606.082 3001
606.158 3026
606.233 3007
606.308 3025
606.383 3097
606.459 3616
606.534 3033
606.609 3007
606.684 3016
606.76 3009
606.835 3012
606.91 2977
606.985 2983
607.061 2996
607.136 2989
607.211 3003
607.286 3016
607.362 3015
607.437 3003
607.512 2999
607.587 3010
607.662 3091
607.738 3175
607.813 3196
607.888 3158
607.963 3190
608.039 3147
608.114 3097
608.189 3082
608.264 3081
608.339 3038
608.415 3014
608.49 3030
608.565 2998
608.64 3035
608.716 3014
608.791 3037
608.866 3019
608.941 3023
609.016 3012
609.092 3027
609.167 3023
609.242 2982
609.317 3010
609.392 3015
609.467 3007
609.543 3021
609.618 3015
609.693 3015
609.768 3031
609.843 3150
609.919 3440
609.994 3442
610.069 3413
610.144 3362
610.219 3274
610.294 3257
610.37 3190
610.445 3129
610.52 3085
610.595 3097
610.67 3057
610.745 3031
610.82 3018
610.896 3049
610.971 3018
611.046 3014
611.121 3024
611.196 3020
611.271 3022
611.347 3032
611.422 3026
611.497 3043
611.572 3039
611.647 3041
611.722 3018
611.797 3051
611.872 3030
611.948 3023
612.023 3064
612.098 3049
612.173 3009
612.248 3017
612.323 3056
612.398 3035
612.474 3039
612.549 3036
612.624 3026
612.699 3009
612.774 2995
612.849 3013
612.924 3026
612.999 2999
613.074 3035
613.15 3045
613.225 3013
613.3 3017
613.375 3010
613.45 3031
613.525 3043
613.6 3019
613.675 3046
613.75 3034
613.825 3016
613.901 2998
613.976 3016
614.051 3011
614.126 3018
614.201 3018
614.276 3031
614.351 2991
614.426 3015
614.501 3175
614.576 3522
614.651 3588
614.726 3548
614.801 3456
614.876 3392
614.951 3335
615.026 3260
615.102 3189
615.177 3125
615.252 3084
615.327 3094
615.402 3061
615.477 3038
615.552 3017
615.627 3055
615.702 3008
615.777 3040
615.852 3023
615.927 3036
616.002 3036
616.077 3031
616.152 3013
616.227 3008
616.302 3024
616.377 3021
616.452 2989
616.527 3032
616.602 3141
616.677 3190
616.753 3146
616.827 3132
616.902 3121
616.978 3076
617.052 3083
617.128 3116
617.203 3057
617.278 3053
617.353 3025
617.427 3005
617.503 2997
617.578 3013
617.653 3026
617.728 3026
617.802 3021
617.878 3027
617.953 3039
618.027 3025
618.102 3029
618.177 3009
618.253 3023
618.327 3018
618.402 3021
618.477 3024
618.552 3005
618.627 3004
618.702 3027
618.777 3023
618.852 2999
618.927 3029
619.002 3010
619.077 2999
619.152 3024
619.227 3015
619.302 3010
619.377 3027
619.452 3000
619.527 2992
619.602 3000
619.677 3003
619.752 2990
619.827 3003
619.902 3021
619.977 3010
620.052 3022
620.127 3035
620.201 3041
620.276 3034
620.351 3033
620.426 3031
620.501 3027
620.576 2985
620.651 2992
620.726 3004
620.801 3015
620.876 3031
620.951 3021
621.026 3009
621.1 2995
621.175 3025
621.25 3006
621.325 3001
621.4 3016
621.475 3022
621.55 3022
621.625 3014
621.7 3026
621.775 3016
621.85 3046
621.924 3092
621.999 3123
622.074 3097
622.149 3088
622.224 3076
622.299 3041
622.374 3063
622.449 3083
622.524 3024
622.598 3006
622.673 3032
622.748 3025
622.823 3008
622.898 3024
622.973 3011
623.048 2997
623.123 3002
623.198 2994
623.272 3027
623.347 3023
623.422 3027
623.497 3007
623.572 3006
623.647 3012
623.721 3021
623.796 3020
623.871 3023
623.946 3015
624.021 3022
624.096 2999
624.171 3012
624.245 3007
624.32 3002
624.395 3021
624.47 3034
624.545 3029
624.62 3015
624.694 3007
624.769 2999
624.844 3016
624.919 3013
624.994 2993
625.069 3003
625.143 2982
625.218 2991
625.293 3036
625.368 3004
625.443 3009
625.517 3007
625.592 3010
625.667 3003
625.742 3014
625.817 3013
625.891 3022
625.966 3000
626.041 3004
626.116 3031
626.191 3008
626.266 3032
626.34 3021
626.415 3012
626.49 3021
626.565 3023
626.639 3014
626.714 3034
626.789 3050
626.864 3194
626.938 3179
627.013 3208
627.088 3145
627.163 3151
627.238 3118
627.312 3091
627.387 3048
627.462 3036
627.537 3014
627.611 3045
627.686 3028
627.761 3026
627.836 3005
627.91 3017
627.985 3044
628.06 3008
628.135 3025
628.209 3029
628.284 3029
628.359 3043
628.434 3046
628.508 3008
628.583 3008
628.658 3001
628.733 3005
628.807 3024
628.882 2999
628.957 3024
629.031 3005
629.106 3002
629.181 3010
629.256 3009
629.33 3017
629.405 3019
629.48 3025
629.555 2986
629.629 3020
629.704 3005
629.779 2983
629.853 3018
629.928 3000
630.003 3022
630.077 3006
630.152 3007
630.227 2976
630.301 3008
630.376 3011
630.451 3035
630.526 3012
630.6 3052
630.675 3117
630.75 3102
630.824 3108
630.899 3092
630.974 3059
631.048 3068
631.123 3029
631.198 3059
631.272 3035
631.347 3058
631.422 3017
631.496 3019
631.571 3033
631.646 3009
631.72 3002
631.795 3013
631.87 3016
631.944 3027
632.019 3010
632.094 3013
632.168 3029
632.243 3002
632.317 3000
632.392 3004
632.467 3024
632.541 2984
632.616 3039
632.691 3001
632.765 3020
632.84 3024
632.915 3017
632.989 3013
633.064 3030
633.138 3015
633.213 3017
633.288 3013
633.362 3029
633.437 3002
633.511 3044
633.586 3087
633.661 3142
633.735 3157
633.81 3116
633.885 3104
633.959 3081
634.034 3066
634.108 3031
634.183 3047
634.258 3018
634.332 3022
634.407 3013
634.481 3032
634.556 2998
634.63 3010
634.705 3028
634.78 3013
634.854 3021
634.929 3007
635.003 3003
635.078 3052
635.152 3000
635.227 3031
635.302 3009
635.376 3000
635.451 3013
635.525 3019
635.6 3005
635.674 3014
635.749 2994
635.824 3000
635.898 3020
635.973 3014
636.047 2997
636.122 3020
636.196 3005
636.271 3009
636.345 3001
636.42 3033
636.494 3023
636.569 3019
636.643 3038
636.718 3015
636.793 3019
636.867 3017
636.942 3022
637.016 3005
637.091 3032
637.165 3023
637.24 3030
637.314 3026
637.389 3011
637.463 3024
637.538 3022
637.612 3008
637.687 3021
637.761 3014
637.836 3014
637.91 3012
637.985 3026
638.059 3018
638.134 2995
638.208 3019
638.283 3033
638.357 3122
638.432 3532
638.506 3534
638.581 3399
638.655 3346
638.73 3312
638.804 3238
638.879 3192
638.953 3156
639.028 3110
639.102 3049
639.176 3062
639.251 3075
639.325 3018
639.4 3042
639.474 3014
639.549 3016
639.623 3017
639.698 3039
639.772 3007
639.847 3031
639.921 2994
639.996 3026
640.07 3043
640.144 3020
